{
    "resourceType": "ImagingStudy",
    "id": "592734c9-c317-459e-a7e8-15391e191884",
    "contained": [
        {
            "resourceType": "Patient",
            "id": "patient.contained.inline"
        },
        {
            "resourceType": "Endpoint",
            "id": "5d1f8459-3cb4-4081-a62d-8d597b59a30c",
            "status": "active",
            "connectionType": {
                "system": "http://terminology.hl7.org/CodeSystem/endpoint-connection-type",
                "code": "dicom-wado-rs"
            },
            "payloadType": [
                {
                    "text": "DICOM WADO-RS"
                }
            ],
            "address": "http://127.0.0.1.nip.io/studies/2.16.124.113531.1.1.10139100029045.20160106.122816.110/series/2.16.124.113531.1.1.10241360029058.20160106.122820.111"
        }
    ],
    "identifier": [
        {
            "system": "urn:dicom:uid",
            "value": "urn:oid:2.16.124.113531.1.1.10139100029045.20160106.122816.110"
        }
    ],
    "status": "available",
    "subject": {
        "reference": "#patient.contained.inline"
    },
    "series": [
        {
            "uid": "2.16.124.113531.1.1.10241360029058.20160106.122820.111",
            "number": 1,
            "modality": {
                "system": "http://dicom.nema.org/resources/ontology/DCM",
                "code": "CT"
            },
            "numberOfInstances": 1,
            "endpoint": [
                {
                    "reference": "#5d1f8459-3cb4-4081-a62d-8d597b59a30c"
                }
            ],
            "instance": [
                {
                    "uid": "2.16.124.113531.1.1.10230900029078.20160106.122826.112",
                    "sopClass": {
                        "system": "urn:ietf:rfc:3986",
                        "code": "urn:oid:1.2.840.10008.5.1.4.1.1.2"
                    },
                    "number": 1
                }
            ]
        }
    ]
}
