{
    "resourceType": "ImagingStudy",
    "id": "30844e62-c7e5-436f-9cb3-16e1f7dab355",
    "contained": [
        {
            "resourceType": "Patient",
            "id": "patient.contained.inline"
        },
        {
            "resourceType": "Endpoint",
            "id": "da5eddd1-f979-4518-a370-376d1410e8a4",
            "status": "active",
            "connectionType": {
                "system": "http://terminology.hl7.org/CodeSystem/endpoint-connection-type",
                "code": "dicom-wado-rs"
            },
            "payloadType": [
                {
                    "text": "DICOM WADO-RS"
                }
            ],
            "address": "http://127.0.0.1.nip.io"
        }
    ],
    "identifier": [
        {
            "system": "urn:dicom:uid",
            "value": "urn:oid:2.16.124.113531.1.1.10139100029045.20160106.122816.110"
        }
    ],
    "status": "available",
    "subject": {
        "reference": "#patient.contained.inline"
    },
    "series": [
        {
            "uid": "2.16.124.113531.1.1.10241360029058.20160106.122820.111",
            "number": 1,
            "modality": {
                "system": "http://dicom.nema.org/resources/ontology/DCM",
                "code": "CT"
            },
            "numberOfInstances": 1,
            "endpoint": [
                {
                    "reference": "#da5eddd1-f979-4518-a370-376d1410e8a4"
                }
            ],
            "instance": [
                {
                    "uid": "2.16.124.113531.1.1.10230900029078.20160106.122826.112",
                    "sopClass": {
                        "system": "urn:ietf:rfc:3986",
                        "code": "urn:oid:1.2.840.10008.5.1.4.1.1.2"
                    },
                    "number": 1
                }
            ]
        }
    ]
}
